Folder: chiton_stylus/Fig S04/csv

Note: README.md
# chiton_stylus
This repo contains data and scripts to visualize data associated with the following publication:

Linus Stegbauer, E. Ercan Alp, Paul J. M. Smeets, Robert Free, Shay G. Wallace, Mark C. Hersam, and Derk Joester, *Proc Natl Acad Sci USA*, **in press**

Please direct correspondence to DJ @ d-joester@northwestern.edu

File: FigS4_processed_ChitosanOAc.csv
Wavenumber,Transmission
cm^{-1},a.u.
3964.7,0.99539
3882.89,0.98925
3801.07,0.97877
3734.6,0.9517
3703.92,0.91211
3690.28,0.87677
3680.06,0.84028
3666.42,0.80148
3657.9,0.7702
3657.9,0.74414
3647.67,0.71113
3637.44,0.66595
3637.44,0.63294
3627.22,0.59298
3627.22,0.56692
3616.99,0.53043
3606.76,0.49568
3606.76,0.46354
3596.54,0.42618
3586.31,0.38796
3586.31,0.3619
3577.79,0.3202
3565.86,0.28805
3555.63,0.24722
3533.47,0.19451
3524.95,0.15686
3514.72,0.12385
3509.61,0.096049
3484.04,0.057377
3458.47,0.023048
3417.57,0
3376.66,0.029358
3361.32,0.055984
3351.09,0.069874
3318.71,0.11676
3274.39,0.14915
3215.07,0.18304
3172.12,0.21321
3131.21,0.24266
3069.85,0.26983
3000.31,0.29244
2977.811,0.27286
2962.47,0.24708
2942.02,0.21724
2921.56,0.17814
2916.45,0.15989
2883.21,0.24369
2895.996,0.20678
2844.86,0.24187
2839.75,0.28665
2831.23,0.32371
2824.41,0.31617
2783.5,0.37058
2732.366,0.40239
2671,0.4352
2633.51,0.4637
2578.96,0.49551
2512.49,0.52875
2476.69,0.5599
2440.9,0.59645
2415.33,0.62741
2379.54,0.6546
2353.97,0.68354
2313.06,0.71623
2272.16,0.74891
2205.682,0.77261
2123.867,0.77081
2057.39,0.79812
2016.48,0.83472
2002.68,0.83914
1989.9,0.85917
1961.815,0.88269
1938.84,0.90186
1915.86,0.92102
1887.79,0.94019
1859.73,0.95412
1829.13,0.96109
1798.562,0.95528
1775.68,0.92973
1765.53,0.90883
1755.4,0.87834
1747.84,0.83914
1742.79,0.81649
1737.74,0.79384
1732.69,0.76945
1727.63,0.75029
1722.59,0.72416
1717.54,0.70151
1712.49,0.6806
1707.43,0.65969
1702.38,0.63705
1697.33,0.6144
1687.2,0.58478
1682.16,0.55865
1677.118,0.53252
1672.09,0.49767
1667.06,0.46631
1662.03,0.4367
1656.98,0.41056
1651.946,0.38269
1644.35,0.3583
1618.876,0.35394
1590.82,0.36701
1562.8,0.35917
1539.81,0.38269
1527.02,0.40708
1519.33,0.42799
1514.22,0.4367
1501.39,0.4759
1496.27,0.48809
1488.55,0.52206
1478.33,0.53426
1468.18,0.51509
1460.58,0.49419
1450.43,0.47067
1440.29,0.44715
1432.7,0.41927
1412.367,0.39401
1397.01,0.42624
1386.79,0.43844
1371.43,0.47328
1366.28,0.49767
1361.116,0.52903
1353.41,0.55865
1345.72,0.57723
1317.67,0.58914
1299.78,0.61266
1294.656,0.62485
1289.51,0.64924
1284.37,0.67015
1263.95,0.68234
1241.03,0.67886
1233.34,0.69976
1210.395,0.70238
1200.25,0.67712
1192.66,0.65447
1187.61,0.63008
1184.322,0.57723
1177.55,0.56446
1172.537,0.52555
1167.53,0.48374
1162.51,0.44541
1157.49,0.40708
1137.09,0.41231
1132.04,0.39314
1127.01,0.3583
1121.98,0.32694
1116.94,0.29906
1109.35,0.27293
1094.11,0.25028
1081.32,0.27467
1071.08,0.29558
1060.841,0.31649
1045.5,0.33855
1030.23,0.33042
1020.08,0.31126
1009.69,0.40359
1009.76,0.36875
1004.513,0.44192
1004.56,0.41927
999.387,0.45586
994.2174,0.4907
989.033,0.53252
983.842,0.57781
978.65,0.62311
973.466,0.66492
968.293,0.70151
963.1487,0.72416
942.67,0.76771
937.504,0.80081
929.799,0.82956
927.23,0.83914
922.115,0.84785
916.964,0.87398
896.525,0.89837
886.28,0.92276
881.1253,0.95064
873.433,0.97329
870.8551,0.98722
845.344,1
830.091,0.982
814.8362,0.96458
799.596,0.94019
781.795,0.92189
756.352,0.90186
730.908,0.88269
710.571,0.8583
692.772,0.83914
680.0858,0.81214
672.5004,0.78339
664.911,0.75639
645.39,0.74855
631.748,0.77236
606.2622,0.77294
601.1471,0.78165
565.441,0.795
550.102,0.81823
534.768,0.83856
509.238,0.86063
483.751,0.86179
478.701,0.83914
468.557,0.81533
455.807,0.8191
448.0685,0.86353
442.935,0.88095
437.809,0.89489
427.535,0.93322
422.42,0.94193
401.956,0.97851

File: FigS4_processed_Composite75.csv
Wavenumber,Transmission
cm^{-1},a.u.
3998.38,0.9828
3986.8,0.98335
3975.23,0.98553
3963.66,0.98329
3952.09,0.98676
3940.51,0.98381
3928.94,0.98629
3917.367,0.98655
3905.79,0.98808
3894.22,0.98983
3882.65,0.99096
3871.08,0.99219
3859.5,0.99122
3847.93,0.99208
3836.358,0.99491
3824.79,0.99286
3813.21,0.99463
3801.64,0.99585
3790.07,0.99275
3778.49,0.99357
3766.92,0.99474
3755.35,0.99612
3743.78,0.99274
3732.2,0.96711
3720.63,0.97467
3709.058,0.97776
3697.49,0.97341
3685.91,0.98604
3674.34,0.99793
3662.77,0.9888
3651.19,0.9863
3639.62,0.97217
3628.05,0.94974
3616.48,0.95248
3604.9,0.92856
3593.33,0.91976
3581.758,0.91358
3570.19,0.9035
3558.61,0.89016
3547.04,0.87651
3535.47,0.86616
3523.89,0.84958
3512.32,0.8376
3500.749,0.82572
3489.18,0.81275
3477.6,0.79938
3466.03,0.78793
3454.46,0.77603
3442.89,0.76493
3431.31,0.75617
3419.74,0.74834
3408.17,0.74069
3396.59,0.73141
3385.02,0.72232
3373.449,0.71388
3361.88,0.70928
3350.3,0.70351
3338.73,0.69652
3327.16,0.68969
3315.59,0.68427
3304.01,0.67531
3292.44,0.66394
3280.87,0.65273
3269.29,0.64414
3257.72,0.63788
3246.149,0.63026
3234.58,0.62509
3223,0.61971
3211.43,0.61725
3199.86,0.61349
3188.29,0.60999
3176.71,0.61123
3165.14,0.61194
3153.57,0.61593
3141.99,0.6166
3130.42,0.61795
3118.85,0.62117
3107.28,0.62046
3095.7,0.61645
3084.13,0.61566
3072.56,0.61422
3060.99,0.6134
3049.41,0.61446
3037.84,0.61458
3026.27,0.61813
3014.69,0.61997
3003.12,0.62251
2991.55,0.62425
2979.98,0.62598
2968.4,0.62781
2956.831,0.62895
2945.26,0.62267
2933.69,0.62287
2922.11,0.62263
2910.54,0.62241
2898.97,0.62102
2887.39,0.61706
2875.82,0.61564
2864.25,0.61761
2852.68,0.62506
2841.1,0.6279
2829.531,0.63615
2817.96,0.64175
2806.39,0.64782
2794.81,0.65419
2783.24,0.65889
2771.67,0.66493
2760.09,0.6707
2748.52,0.67582
2736.95,0.68082
2725.38,0.68604
2713.8,0.6902
2702.231,0.69522
2690.66,0.69822
2679.09,0.70387
2667.51,0.70918
2655.94,0.70975
2644.37,0.71188
2632.79,0.71723
2621.222,0.72067
2609.65,0.72499
2598.08,0.72783
2586.5,0.73099
2574.93,0.73436
2563.36,0.7391
2551.79,0.74237
2540.21,0.74672
2528.64,0.74833
2517.07,0.75055
2505.49,0.75191
2493.922,0.75607
2482.35,0.75861
2470.78,0.76232
2459.2,0.76407
2447.63,0.76381
2436.06,0.76917
2424.49,0.77273
2412.91,0.77739
2401.34,0.7815
2389.77,0.78384
2378.19,0.78341
2366.622,0.77442
2355.05,0.77657
2343.48,0.77457
2331.9,0.7774
2320.33,0.78055
2308.76,0.77487
2297.19,0.78334
2285.613,0.78717
2274.04,0.79254
2262.47,0.79698
2250.89,0.80003
2239.32,0.80396
2227.75,0.80515
2216.18,0.80896
2204.6,0.81268
2193.03,0.80187
2181.46,0.81484
2169.89,0.81072
2158.313,0.83083
2146.74,0.83286
2135.17,0.83797
2123.59,0.83397
2112.02,0.82683
2100.45,0.82849
2088.88,0.83155
2077.3,0.82748
2065.73,0.83338
2054.16,0.83493
2042.59,0.82944
2031.013,0.83612
2019.44,0.83626
2007.87,0.85437
1996.29,0.84695
1984.72,0.84608
1973.15,0.86469
1961.58,0.86202
1950.004,0.86897
1938.43,0.8724
1926.86,0.87259
1915.29,0.87551
1903.71,0.87966
1892.14,0.88128
1880.57,0.88391
1868.99,0.88535
1857.42,0.88682
1845.85,0.88846
1834.28,0.89153
1822.704,0.89252
1811.13,0.89509
1799.56,0.89386
1787.99,0.89683
1776.41,0.89667
1764.84,0.89649
1753.27,0.89495
1741.69,0.87685
1730.12,0.85333
1718.55,0.84243
1706.98,0.83788
1695.404,0.83698
1683.83,0.81833
1672.26,0.77357
1660.69,0.7221
1649.11,0.69094
1637.54,0.67105
1625.97,0.66489
1614.395,0.67229
1602.82,0.67808
1591.25,0.68119
1579.68,0.68057
1568.1,0.66708
1556.53,0.65466
1544.96,0.64747
1533.39,0.64873
1521.81,0.66939
1510.24,0.70889
1498.67,0.7468
1487.095,0.76035
1475.52,0.74599
1463.95,0.7088
1452.38,0.66517
1440.8,0.62776
1429.23,0.59895
1417.66,0.58901
1406.086,0.60014
1394.51,0.63507
1382.94,0.64309
1371.37,0.64763
1359.8,0.699
1348.22,0.73434
1336.65,0.74583
1325.08,0.74157
1313.5,0.74048
1301.93,0.74779
1290.36,0.75807
1278.786,0.76185
1267.21,0.76001
1255.64,0.75591
1244.07,0.75821
1232.5,0.77062
1220.92,0.78073
1209.35,0.78287
1197.78,0.76925
1186.2,0.74873
1174.63,0.71059
1163.06,0.65359
1151.486,0.60643
1139.91,0.58566
1128.34,0.54211
1116.77,0.48172
1105.2,0.41752
1093.62,0.34293
1082.05,0.27222
1070.477,0.21101
1058.9,0.16064
1047.33,0.12333
1035.76,0.082799
1024.19,0.050291
1012.61,0.029986
1001.04,0.014175
989.468,0.0026995
977.895,0.0010877
966.322,0.010719
954.75,0.028013
943.177,0.047765
931.604,0.076258
920.032,0.097755
908.459,0.11589
896.8861,0.12559
885.313,0.13673
873.741,0.16259
862.168,0.19298
850.5952,0.22515
839.022,0.25452
827.45,0.27883
815.877,0.29913
804.304,0.31233
792.732,0.32593
781.159,0.33149
769.586,0.3469
758.013,0.34863
746.441,0.35502
734.868,0.3563
723.295,0.3614
711.723,0.35969
700.1498,0.35892
688.577,0.36275
677.004,0.36869
665.432,0.39476
653.8589,0.3341
642.286,0.33664
630.713,0.29659
619.141,0.29758
607.568,0.29299
599.853,0.27552